SpectraSuite Data File
++++++++++++++++++++++++++++++++++++
Date: Sun Apr 24 18:33:24 CEST 2016
User: spectrasuite
Dark Spectrum Present: Yes
Reference Spectrum Present: Yes
Number of Sampled Component Spectra: 1
Spectrometers: HR+C0708
Integration Time (usec): 1000 (HR+C0708)
Spectra Averaged: 10 (HR+C0708)
Boxcar Smoothing: 0 (HR+C0708)
Correct for Electrical Dark: No (HR+C0708)
Strobe/Lamp Enabled: No (HR+C0708)
Correct for Detector Non-linearity: No (HR+C0708)
Correct for Stray Light: No (HR+C0708)
Number of Pixels in Processed Spectrum: 2048
>>>>>Begin Processed Spectral Data<<<<<
188.76	0.369
189.23	-0.324
189.70	-0.032
190.17	0.192
190.64	-0.000
191.12	-0.000
191.59	-0.000
192.06	0.270
192.53	0.271
193.01	0.294
193.48	0.327
193.95	1.826
194.42	-0.855
194.90	0.281
195.37	-0.000
195.84	0.012
196.31	0.717
196.78	0.456
197.26	0.210
197.73	0.306
198.20	0.613
198.67	0.236
199.14	0.073
199.62	-0.000
200.09	0.361
200.56	0.300
201.03	0.231
201.50	0.157
201.97	0.272
202.45	0.263
202.92	0.086
203.39	0.489
203.86	0.220
204.33	0.269
204.80	0.195
205.28	0.198
205.75	0.346
206.22	0.298
206.69	0.272
207.16	0.225
207.63	0.241
208.11	0.088
208.58	0.252
209.05	0.214
209.52	0.100
209.99	0.177
210.46	0.306
210.93	0.226
211.41	0.145
211.88	0.283
212.35	0.422
212.82	0.286
213.29	0.125
213.76	0.209
214.23	0.176
214.70	0.174
215.18	0.297
215.65	0.273
216.12	0.110
216.59	0.191
217.06	0.265
217.53	0.262
218.00	0.241
218.47	0.226
218.94	0.301
219.41	0.222
219.89	0.292
220.36	0.281
220.83	0.336
221.30	0.299
221.77	0.257
222.24	0.362
222.71	0.382
223.18	0.351
223.65	0.333
224.12	0.513
224.59	0.432
225.06	0.536
225.54	0.593
226.01	0.549
226.48	0.642
226.95	0.695
227.42	0.656
227.89	0.834
228.36	0.811
228.83	0.930
229.30	0.955
229.77	0.809
230.24	0.961
230.71	1.120
231.18	1.084
231.65	1.098
232.12	1.257
232.59	1.238
233.06	1.427
233.53	1.385
234.00	1.378
234.47	1.437
234.94	1.473
235.41	1.521
235.88	1.563
236.35	1.472
236.82	1.599
237.29	1.772
237.76	1.700
238.23	1.667
238.70	1.739
239.17	1.815
239.64	1.856
240.11	1.891
240.58	1.880
241.05	1.929
241.52	1.928
241.99	1.972
242.46	2.035
242.93	1.975
243.40	2.034
243.87	1.987
244.34	2.066
244.81	2.019
245.28	1.976
245.75	2.105
246.22	2.087
246.69	1.979
247.16	2.082
247.63	2.057
248.10	2.042
248.57	2.134
249.04	2.088
249.51	1.974
249.98	2.035
250.45	1.984
250.92	1.958
251.39	1.950
251.85	1.837
252.32	1.699
252.79	1.626
253.26	1.484
253.73	1.395
254.20	1.302
254.67	1.221
255.14	1.149
255.61	1.075
256.08	1.027
256.55	0.974
257.02	0.930
257.49	0.894
257.95	0.858
258.42	0.824
258.89	0.790
259.36	0.765
259.83	0.739
260.30	0.717
260.77	0.698
261.24	0.681
261.71	0.658
262.17	0.640
262.64	0.628
263.11	0.610
263.58	0.596
264.05	0.584
264.52	0.569
264.99	0.555
265.46	0.540
265.92	0.530
266.39	0.519
266.86	0.508
267.33	0.495
267.80	0.483
268.27	0.472
268.74	0.463
269.20	0.452
269.67	0.445
270.14	0.433
270.61	0.425
271.08	0.415
271.55	0.406
272.01	0.399
272.48	0.389
272.95	0.383
273.42	0.375
273.89	0.367
274.36	0.359
274.82	0.352
275.29	0.343
275.76	0.341
276.23	0.330
276.70	0.325
277.16	0.317
277.63	0.313
278.10	0.307
278.57	0.301
279.04	0.295
279.50	0.290
279.97	0.285
280.44	0.286
280.91	0.278
281.38	0.272
281.84	0.267
282.31	0.264
282.78	0.261
283.25	0.258
283.72	0.255
284.18	0.251
284.65	0.246
285.12	0.244
285.59	0.240
286.05	0.238
286.52	0.233
286.99	0.231
287.46	0.226
287.92	0.224
288.39	0.221
288.86	0.220
289.33	0.216
289.79	0.215
290.26	0.212
290.73	0.208
291.20	0.204
291.66	0.206
292.13	0.206
292.60	0.202
293.07	0.198
293.53	0.194
294.00	0.194
294.47	0.195
294.93	0.195
295.40	0.188
295.87	0.189
296.34	0.188
296.80	0.185
297.27	0.184
297.74	0.182
298.20	0.182
298.67	0.180
299.14	0.179
299.60	0.177
300.07	0.178
300.54	0.174
301.01	0.176
301.47	0.172
301.94	0.173
302.41	0.168
302.87	0.170
303.34	0.169
303.81	0.168
304.27	0.167
304.74	0.166
305.21	0.164
305.67	0.161
306.14	0.160
306.61	0.160
307.07	0.158
307.54	0.155
308.01	0.153
308.47	0.154
308.94	0.153
309.40	0.150
309.87	0.152
310.34	0.150
310.80	0.147
311.27	0.145
311.74	0.144
312.20	0.144
312.67	0.144
313.13	0.142
313.60	0.139
314.07	0.139
314.53	0.139
315.00	0.137
315.47	0.136
315.93	0.138
316.40	0.134
316.86	0.132
317.33	0.131
317.80	0.131
318.26	0.129
318.73	0.128
319.19	0.127
319.66	0.125
320.13	0.123
320.59	0.123
321.06	0.122
321.52	0.123
321.99	0.121
322.45	0.120
322.92	0.118
323.39	0.117
323.85	0.118
324.32	0.119
324.78	0.115
325.25	0.116
325.71	0.112
326.18	0.113
326.64	0.113
327.11	0.113
327.58	0.112
328.04	0.106
328.51	0.107
328.97	0.109
329.44	0.106
329.90	0.107
330.37	0.104
330.83	0.107
331.30	0.103
331.76	0.104
332.23	0.105
332.69	0.103
333.16	0.102
333.62	0.103
334.09	0.099
334.56	0.101
335.02	0.103
335.49	0.098
335.95	0.103
336.42	0.098
336.88	0.098
337.35	0.098
337.81	0.101
338.28	0.099
338.74	0.099
339.20	0.099
339.67	0.097
340.13	0.094
340.60	0.096
341.06	0.095
341.53	0.096
341.99	0.096
342.46	0.098
342.92	0.093
343.39	0.096
343.85	0.096
344.32	0.093
344.78	0.092
345.25	0.093
345.71	0.096
346.17	0.090
346.64	0.091
347.10	0.095
347.57	0.094
348.03	0.093
348.50	0.093
348.96	0.091
349.43	0.091
349.89	0.092
350.35	0.089
350.82	0.091
351.28	0.091
351.75	0.090
352.21	0.089
352.67	0.093
353.14	0.089
353.60	0.091
354.07	0.086
354.53	0.092
355.00	0.087
355.46	0.086
355.92	0.091
356.39	0.089
356.85	0.090
357.31	0.087
357.78	0.087
358.24	0.085
358.71	0.088
359.17	0.087
359.63	0.082
360.10	0.087
360.56	0.088
361.03	0.086
361.49	0.085
361.95	0.088
362.42	0.088
362.88	0.087
363.34	0.085
363.81	0.083
364.27	0.086
364.73	0.087
365.20	0.085
365.66	0.083
366.12	0.083
366.59	0.085
367.05	0.083
367.51	0.085
367.98	0.084
368.44	0.084
368.90	0.082
369.37	0.083
369.83	0.084
370.29	0.084
370.76	0.082
371.22	0.083
371.68	0.084
372.15	0.083
372.61	0.083
373.07	0.084
373.54	0.083
374.00	0.084
374.46	0.082
374.92	0.084
375.39	0.080
375.85	0.082
376.31	0.083
376.78	0.085
377.24	0.080
377.70	0.081
378.16	0.080
378.63	0.080
379.09	0.080
379.55	0.083
380.01	0.082
380.48	0.082
380.94	0.083
381.40	0.080
381.87	0.079
382.33	0.081
382.79	0.082
383.25	0.082
383.72	0.081
384.18	0.082
384.64	0.080
385.10	0.080
385.56	0.078
386.03	0.083
386.49	0.080
386.95	0.083
387.41	0.079
387.88	0.079
388.34	0.078
388.80	0.080
389.26	0.079
389.72	0.078
390.19	0.080
390.65	0.077
391.11	0.080
391.57	0.079
392.04	0.078
392.50	0.081
392.96	0.080
393.42	0.077
393.88	0.077
394.34	0.079
394.81	0.079
395.27	0.080
395.73	0.077
396.19	0.081
396.65	0.076
397.12	0.081
397.58	0.079
398.04	0.078
398.50	0.079
398.96	0.077
399.42	0.076
399.89	0.080
400.35	0.080
400.81	0.077
401.27	0.076
401.73	0.078
402.19	0.077
402.65	0.077
403.12	0.079
403.58	0.080
404.04	0.079
404.50	0.078
404.96	0.078
405.42	0.077
405.88	0.078
406.34	0.078
406.81	0.078
407.27	0.078
407.73	0.077
408.19	0.076
408.65	0.075
409.11	0.077
409.57	0.079
410.03	0.078
410.49	0.076
410.96	0.079
411.42	0.074
411.88	0.079
412.34	0.076
412.80	0.076
413.26	0.077
413.72	0.077
414.18	0.076
414.64	0.078
415.10	0.076
415.56	0.077
416.02	0.074
416.48	0.076
416.95	0.075
417.41	0.075
417.87	0.079
418.33	0.078
418.79	0.074
419.25	0.076
419.71	0.074
420.17	0.075
420.63	0.075
421.09	0.074
421.55	0.075
422.01	0.074
422.47	0.074
422.93	0.076
423.39	0.075
423.85	0.074
424.31	0.072
424.77	0.073
425.23	0.078
425.69	0.075
426.15	0.074
426.61	0.076
427.07	0.074
427.53	0.074
427.99	0.076
428.45	0.076
428.91	0.073
429.37	0.073
429.83	0.073
430.29	0.076
430.75	0.075
431.21	0.074
431.67	0.076
432.13	0.074
432.59	0.077
433.05	0.077
433.51	0.074
433.97	0.072
434.43	0.073
434.89	0.074
435.35	0.075
435.81	0.073
436.27	0.073
436.73	0.073
437.19	0.073
437.65	0.073
438.11	0.075
438.57	0.072
439.03	0.072
439.48	0.072
439.94	0.073
440.40	0.072
440.86	0.073
441.32	0.071
441.78	0.072
442.24	0.070
442.70	0.075
443.16	0.072
443.62	0.072
444.08	0.073
444.54	0.071
444.99	0.069
445.45	0.070
445.91	0.072
446.37	0.071
446.83	0.074
447.29	0.073
447.75	0.071
448.21	0.071
448.67	0.071
449.12	0.069
449.58	0.073
450.04	0.070
450.50	0.070
450.96	0.073
451.42	0.070
451.88	0.071
452.34	0.069
452.79	0.072
453.25	0.072
453.71	0.073
454.17	0.070
454.63	0.071
455.09	0.070
455.55	0.066
456.00	0.072
456.46	0.070
456.92	0.070
457.38	0.070
457.84	0.072
458.30	0.068
458.75	0.072
459.21	0.074
459.67	0.071
460.13	0.071
460.59	0.072
461.04	0.070
461.50	0.070
461.96	0.070
462.42	0.072
462.88	0.072
463.33	0.071
463.79	0.072
464.25	0.071
464.71	0.071
465.17	0.070
465.62	0.071
466.08	0.071
466.54	0.073
467.00	0.069
467.46	0.071
467.91	0.072
468.37	0.068
468.83	0.068
469.29	0.072
469.74	0.066
470.20	0.069
470.66	0.071
471.12	0.071
471.57	0.070
472.03	0.070
472.49	0.070
472.95	0.071
473.40	0.072
473.86	0.069
474.32	0.072
474.78	0.068
475.23	0.072
475.69	0.071
476.15	0.071
476.60	0.070
477.06	0.069
477.52	0.071
477.98	0.068
478.43	0.070
478.89	0.072
479.35	0.072
479.80	0.068
480.26	0.069
480.72	0.070
481.18	0.072
481.63	0.071
482.09	0.069
482.55	0.069
483.00	0.068
483.46	0.070
483.92	0.068
484.37	0.067
484.83	0.067
485.29	0.069
485.74	0.066
486.20	0.069
486.66	0.069
487.11	0.070
487.57	0.070
488.03	0.070
488.48	0.070
488.94	0.070
489.40	0.069
489.85	0.069
490.31	0.069
490.77	0.067
491.22	0.069
491.68	0.069
492.13	0.068
492.59	0.070
493.05	0.068
493.50	0.069
493.96	0.068
494.42	0.070
494.87	0.069
495.33	0.069
495.78	0.070
496.24	0.070
496.70	0.067
497.15	0.068
497.61	0.068
498.06	0.068
498.52	0.068
498.98	0.070
499.43	0.070
499.89	0.069
500.34	0.067
500.80	0.066
501.25	0.070
501.71	0.069
502.17	0.070
502.62	0.068
503.08	0.067
503.53	0.069
503.99	0.067
504.44	0.069
504.90	0.067
505.36	0.068
505.81	0.066
506.27	0.068
506.72	0.066
507.18	0.069
507.63	0.068
508.09	0.067
508.54	0.066
509.00	0.069
509.45	0.069
509.91	0.067
510.36	0.067
510.82	0.070
511.27	0.070
511.73	0.069
512.19	0.067
512.64	0.068
513.10	0.068
513.55	0.069
514.01	0.068
514.46	0.068
514.92	0.068
515.37	0.070
515.83	0.068
516.28	0.067
516.73	0.070
517.19	0.069
517.64	0.067
518.10	0.069
518.55	0.067
519.01	0.068
519.46	0.068
519.92	0.069
520.37	0.067
520.83	0.070
521.28	0.069
521.74	0.066
522.19	0.067
522.65	0.065
523.10	0.067
523.55	0.067
524.01	0.067
524.46	0.069
524.92	0.068
525.37	0.067
525.83	0.066
526.28	0.066
526.73	0.070
527.19	0.065
527.64	0.070
528.10	0.069
528.55	0.068
529.01	0.069
529.46	0.068
529.91	0.069
530.37	0.068
530.82	0.069
531.28	0.066
531.73	0.067
532.18	0.070
532.64	0.068
533.09	0.067
533.54	0.068
534.00	0.069
534.45	0.067
534.91	0.067
535.36	0.068
535.81	0.066
536.27	0.068
536.72	0.067
537.17	0.069
537.63	0.069
538.08	0.066
538.54	0.066
538.99	0.068
539.44	0.067
539.90	0.069
540.35	0.069
540.80	0.069
541.26	0.067
541.71	0.067
542.16	0.069
542.62	0.067
543.07	0.066
543.52	0.066
543.98	0.067
544.43	0.066
544.88	0.068
545.34	0.068
545.79	0.066
546.24	0.066
546.69	0.064
547.15	0.068
547.60	0.066
548.05	0.066
548.51	0.065
548.96	0.065
549.41	0.065
549.86	0.066
550.32	0.068
550.77	0.066
551.22	0.068
551.68	0.068
552.13	0.066
552.58	0.067
553.03	0.066
553.49	0.064
553.94	0.065
554.39	0.064
554.84	0.065
555.30	0.068
555.75	0.066
556.20	0.065
556.65	0.069
557.11	0.066
557.56	0.066
558.01	0.067
558.46	0.065
558.92	0.065
559.37	0.068
559.82	0.066
560.27	0.066
560.72	0.066
561.18	0.066
561.63	0.066
562.08	0.066
562.53	0.065
562.99	0.067
563.44	0.065
563.89	0.067
564.34	0.066
564.79	0.066
565.25	0.065
565.70	0.067
566.15	0.065
566.60	0.065
567.05	0.064
567.50	0.064
567.96	0.064
568.41	0.064
568.86	0.065
569.31	0.064
569.76	0.066
570.21	0.065
570.67	0.065
571.12	0.066
571.57	0.064
572.02	0.062
572.47	0.066
572.92	0.064
573.37	0.068
573.83	0.064
574.28	0.065
574.73	0.065
575.18	0.065
575.63	0.064
576.08	0.066
576.53	0.063
576.98	0.065
577.44	0.065
577.89	0.066
578.34	0.064
578.79	0.065
579.24	0.065
579.69	0.065
580.14	0.061
580.59	0.065
581.04	0.063
581.49	0.064
581.95	0.064
582.40	0.062
582.85	0.064
583.30	0.065
583.75	0.065
584.20	0.065
584.65	0.064
585.10	0.065
585.55	0.063
586.00	0.063
586.45	0.064
586.90	0.063
587.35	0.064
587.80	0.065
588.25	0.064
588.71	0.065
589.16	0.063
589.61	0.062
590.06	0.064
590.51	0.064
590.96	0.064
591.41	0.065
591.86	0.063
592.31	0.063
592.76	0.064
593.21	0.065
593.66	0.064
594.11	0.063
594.56	0.064
595.01	0.063
595.46	0.064
595.91	0.065
596.36	0.064
596.81	0.064
597.26	0.064
597.71	0.065
598.16	0.064
598.61	0.062
599.06	0.064
599.51	0.064
599.96	0.066
600.41	0.063
600.86	0.063
601.31	0.062
601.76	0.063
602.21	0.062
602.65	0.065
603.10	0.062
603.55	0.065
604.00	0.065
604.45	0.066
604.90	0.063
605.35	0.065
605.80	0.064
606.25	0.063
606.70	0.064
607.15	0.065
607.60	0.063
608.05	0.064
608.50	0.063
608.95	0.064
609.39	0.063
609.84	0.062
610.29	0.065
610.74	0.064
611.19	0.063
611.64	0.065
612.09	0.063
612.54	0.064
612.99	0.064
613.44	0.063
613.88	0.066
614.33	0.063
614.78	0.061
615.23	0.065
615.68	0.063
616.13	0.064
616.58	0.063
617.03	0.062
617.47	0.062
617.92	0.065
618.37	0.064
618.82	0.063
619.27	0.063
619.72	0.064
620.17	0.063
620.61	0.064
621.06	0.065
621.51	0.061
621.96	0.061
622.41	0.063
622.86	0.064
623.30	0.063
623.75	0.064
624.20	0.062
624.65	0.063
625.10	0.065
625.54	0.064
625.99	0.064
626.44	0.063
626.89	0.063
627.34	0.063
627.78	0.064
628.23	0.064
628.68	0.065
629.13	0.064
629.58	0.063
630.02	0.063
630.47	0.061
630.92	0.063
631.37	0.064
631.81	0.062
632.26	0.064
632.71	0.063
633.16	0.061
633.61	0.063
634.05	0.063
634.50	0.063
634.95	0.066
635.40	0.063
635.84	0.064
636.29	0.064
636.74	0.063
637.18	0.063
637.63	0.062
638.08	0.063
638.53	0.064
638.97	0.064
639.42	0.065
639.87	0.063
640.32	0.062
640.76	0.063
641.21	0.066
641.66	0.063
642.10	0.063
642.55	0.064
643.00	0.062
643.44	0.063
643.89	0.062
644.34	0.064
644.79	0.062
645.23	0.064
645.68	0.063
646.13	0.064
646.57	0.062
647.02	0.063
647.47	0.062
647.91	0.061
648.36	0.065
648.81	0.062
649.25	0.065
649.70	0.063
650.15	0.064
650.59	0.064
651.04	0.064
651.48	0.063
651.93	0.064
652.38	0.064
652.82	0.063
653.27	0.064
653.72	0.062
654.16	0.062
654.61	0.062
655.06	0.064
655.50	0.062
655.95	0.063
656.39	0.062
656.84	0.061
657.29	0.061
657.73	0.063
658.18	0.063
658.62	0.064
659.07	0.064
659.52	0.062
659.96	0.064
660.41	0.061
660.85	0.064
661.30	0.062
661.74	0.063
662.19	0.065
662.64	0.064
663.08	0.063
663.53	0.062
663.97	0.064
664.42	0.065
664.86	0.061
665.31	0.062
665.75	0.063
666.20	0.063
666.65	0.064
667.09	0.062
667.54	0.062
667.98	0.063
668.43	0.063
668.87	0.062
669.32	0.063
669.76	0.062
670.21	0.065
670.65	0.065
671.10	0.062
671.54	0.062
671.99	0.063
672.43	0.063
672.88	0.064
673.32	0.062
673.77	0.064
674.21	0.062
674.66	0.064
675.10	0.063
675.55	0.063
675.99	0.064
676.44	0.063
676.88	0.061
677.33	0.061
677.77	0.064
678.22	0.065
678.66	0.064
679.11	0.064
679.55	0.064
679.99	0.063
680.44	0.064
680.88	0.062
681.33	0.063
681.77	0.062
682.22	0.061
682.66	0.063
683.11	0.065
683.55	0.064
683.99	0.064
684.44	0.064
684.88	0.062
685.33	0.062
685.77	0.063
686.21	0.063
686.66	0.061
687.10	0.064
687.55	0.063
687.99	0.061
688.44	0.065
688.88	0.064
689.32	0.064
689.77	0.063
690.21	0.063
690.65	0.065
691.10	0.064
691.54	0.063
691.99	0.065
692.43	0.062
692.87	0.061
693.32	0.062
693.76	0.064
694.20	0.064
694.65	0.064
695.09	0.065
695.53	0.061
695.98	0.062
696.42	0.063
696.86	0.062
697.31	0.062
697.75	0.063
698.19	0.064
698.64	0.065
699.08	0.064
699.52	0.063
699.97	0.061
700.41	0.064
700.85	0.065
701.30	0.062
701.74	0.064
702.18	0.063
702.63	0.061
703.07	0.065
703.51	0.064
703.96	0.065
704.40	0.064
704.84	0.063
705.28	0.064
705.73	0.064
706.17	0.061
706.61	0.064
707.06	0.064
707.50	0.064
707.94	0.065
708.38	0.063
708.83	0.063
709.27	0.065
709.71	0.062
710.15	0.064
710.60	0.066
711.04	0.062
711.48	0.065
711.92	0.063
712.37	0.064
712.81	0.064
713.25	0.064
713.69	0.065
714.13	0.063
714.58	0.064
715.02	0.063
715.46	0.064
715.90	0.064
716.35	0.061
716.79	0.064
717.23	0.065
717.67	0.065
718.11	0.061
718.56	0.062
719.00	0.063
719.44	0.064
719.88	0.063
720.32	0.063
720.76	0.064
721.21	0.065
721.65	0.063
722.09	0.066
722.53	0.062
722.97	0.064
723.41	0.066
723.86	0.064
724.30	0.063
724.74	0.064
725.18	0.063
725.62	0.064
726.06	0.062
726.50	0.064
726.95	0.063
727.39	0.065
727.83	0.067
728.27	0.065
728.71	0.064
729.15	0.065
729.59	0.061
730.03	0.064
730.48	0.064
730.92	0.062
731.36	0.064
731.80	0.065
732.24	0.064
732.68	0.062
733.12	0.063
733.56	0.065
734.00	0.064
734.44	0.062
734.89	0.064
735.33	0.066
735.77	0.063
736.21	0.064
736.65	0.065
737.09	0.060
737.53	0.066
737.97	0.065
738.41	0.063
738.85	0.062
739.29	0.066
739.73	0.063
740.17	0.066
740.61	0.062
741.05	0.063
741.49	0.065
741.93	0.063
742.37	0.062
742.81	0.061
743.26	0.062
743.70	0.063
744.14	0.066
744.58	0.066
745.02	0.064
745.46	0.066
745.90	0.065
746.34	0.064
746.78	0.065
747.22	0.065
747.66	0.066
748.10	0.066
748.54	0.066
748.98	0.063
749.42	0.064
749.86	0.065
750.29	0.065
750.73	0.063
751.17	0.063
751.61	0.065
752.05	0.066
752.49	0.065
752.93	0.062
753.37	0.063
753.81	0.064
754.25	0.066
754.69	0.064
755.13	0.065
755.57	0.067
756.01	0.066
756.45	0.064
756.89	0.064
757.33	0.065
757.77	0.063
758.21	0.064
758.64	0.062
759.08	0.064
759.52	0.063
759.96	0.062
760.40	0.063
760.84	0.062
761.28	0.064
761.72	0.063
762.16	0.063
762.60	0.061
763.03	0.063
763.47	0.064
763.91	0.064
764.35	0.062
764.79	0.064
765.23	0.064
765.67	0.062
766.11	0.062
766.54	0.061
766.98	0.063
767.42	0.059
767.86	0.065
768.30	0.062
768.74	0.061
769.17	0.063
769.61	0.062
770.05	0.062
770.49	0.061
770.93	0.063
771.37	0.063
771.80	0.064
772.24	0.063
772.68	0.065
773.12	0.061
773.56	0.060
774.00	0.062
774.43	0.064
774.87	0.064
775.31	0.060
775.75	0.066
776.19	0.061
776.62	0.060
777.06	0.063
777.50	0.062
777.94	0.059
778.37	0.059
778.81	0.061
779.25	0.063
779.69	0.061
780.13	0.063
780.56	0.059
781.00	0.061
781.44	0.062
781.88	0.063
782.31	0.061
782.75	0.062
783.19	0.061
783.63	0.063
784.06	0.063
784.50	0.061
784.94	0.061
785.37	0.062
785.81	0.066
786.25	0.060
786.69	0.067
787.12	0.063
787.56	0.061
788.00	0.061
788.43	0.062
788.87	0.062
789.31	0.062
789.75	0.064
790.18	0.065
790.62	0.064
791.06	0.062
791.49	0.063
791.93	0.064
792.37	0.062
792.80	0.062
793.24	0.065
793.68	0.063
794.11	0.064
794.55	0.062
794.99	0.062
795.42	0.063
795.86	0.064
796.30	0.064
796.73	0.063
797.17	0.067
797.61	0.064
798.04	0.057
798.48	0.064
798.91	0.061
799.35	0.062
799.79	0.063
800.22	0.062
800.66	0.063
801.10	0.062
801.53	0.066
801.97	0.062
802.40	0.060
802.84	0.062
803.28	0.060
803.71	0.062
804.15	0.062
804.58	0.059
805.02	0.061
805.46	0.064
805.89	0.066
806.33	0.063
806.76	0.064
807.20	0.058
807.63	0.063
808.07	0.062
808.51	0.063
808.94	0.061
809.38	0.062
809.81	0.061
810.25	0.060
810.68	0.064
811.12	0.066
811.55	0.063
811.99	0.066
812.42	0.063
812.86	0.062
813.29	0.064
813.73	0.062
814.17	0.060
814.60	0.057
815.04	0.057
815.47	0.063
815.91	0.061
816.34	0.062
816.78	0.066
817.21	0.056
817.65	0.060
818.08	0.063
818.52	0.063
818.95	0.061
819.39	0.060
819.82	0.063
820.25	0.060
820.69	0.062
821.12	0.058
821.56	0.060
821.99	0.062
822.43	0.059
822.86	0.061
823.30	0.064
823.73	0.060
824.17	0.057
824.60	0.062
825.04	0.060
825.47	0.060
825.90	0.057
826.34	0.062
826.77	0.062
827.21	0.062
827.64	0.064
828.08	0.062
828.51	0.059
828.94	0.063
829.38	0.060
829.81	0.058
830.25	0.064
830.68	0.066
831.11	0.063
831.55	0.066
831.98	0.063
832.42	0.062
832.85	0.059
833.28	0.061
833.72	0.058
834.15	0.061
834.58	0.061
835.02	0.057
835.45	0.064
835.88	0.066
836.32	0.062
836.75	0.057
837.19	0.065
837.62	0.061
838.05	0.062
838.49	0.064
838.92	0.061
839.35	0.061
839.79	0.063
840.22	0.061
840.65	0.064
841.09	0.058
841.52	0.059
841.95	0.059
842.39	0.064
842.82	0.062
843.25	0.060
843.68	0.063
844.12	0.065
844.55	0.063
844.98	0.065
845.42	0.066
845.85	0.063
846.28	0.058
846.71	0.060
847.15	0.063
847.58	0.063
848.01	0.060
848.45	0.058
848.88	0.061
849.31	0.062
849.74	0.062
850.18	0.064
850.61	0.063
851.04	0.058
851.47	0.062
851.91	0.062
852.34	0.062
852.77	0.055
853.20	0.066
853.64	0.063
854.07	0.062
854.50	0.063
854.93	0.059
855.36	0.056
855.80	0.062
856.23	0.060
856.66	0.063
857.09	0.063
857.52	0.058
857.96	0.063
858.39	0.064
858.82	0.065
859.25	0.059
859.68	0.062
860.12	0.068
860.55	0.061
860.98	0.062
861.41	0.066
861.84	0.064
862.27	0.061
862.71	0.062
863.14	0.058
863.57	0.065
864.00	0.063
864.43	0.062
864.86	0.061
865.30	0.057
865.73	0.066
866.16	0.061
866.59	0.060
867.02	0.061
867.45	0.063
867.88	0.066
868.31	0.062
868.75	0.059
869.18	0.067
869.61	0.058
870.04	0.060
870.47	0.067
870.90	0.065
871.33	0.059
871.76	0.059
872.19	0.069
872.62	0.063
873.06	0.064
873.49	0.066
873.92	0.064
874.35	0.064
874.78	0.066
875.21	0.061
875.64	0.061
876.07	0.063
876.50	0.065
876.93	0.062
877.36	0.064
877.79	0.062
878.22	0.067
878.65	0.060
879.08	0.063
879.51	0.065
879.94	0.064
880.37	0.065
880.80	0.062
881.23	0.063
881.67	0.064
882.10	0.068
882.53	0.069
882.96	0.060
883.39	0.064
883.82	0.064
884.25	0.064
884.68	0.064
885.11	0.065
885.54	0.059
885.97	0.068
886.39	0.066
886.82	0.061
887.25	0.061
887.68	0.063
888.11	0.062
888.54	0.062
888.97	0.066
889.40	0.063
889.83	0.064
890.26	0.063
890.69	0.063
891.12	0.062
891.55	0.061
891.98	0.067
892.41	0.068
892.84	0.068
893.27	0.070
893.70	0.065
894.13	0.066
894.56	0.064
894.98	0.063
895.41	0.070
895.84	0.068
896.27	0.069
896.70	0.065
897.13	0.064
897.56	0.065
897.99	0.067
898.42	0.068
898.85	0.066
899.27	0.064
899.70	0.066
900.13	0.072
900.56	0.072
900.99	0.067
901.42	0.069
901.85	0.066
902.28	0.067
902.70	0.066
903.13	0.067
903.56	0.064
903.99	0.066
904.42	0.071
904.85	0.064
905.27	0.066
905.70	0.065
906.13	0.068
906.56	0.063
906.99	0.062
907.42	0.067
907.84	0.067
908.27	0.067
908.70	0.064
909.13	0.066
909.56	0.064
909.98	0.067
910.41	0.066
910.84	0.066
911.27	0.069
911.70	0.069
912.12	0.067
912.55	0.067
912.98	0.068
913.41	0.065
913.84	0.068
914.26	0.067
914.69	0.066
915.12	0.061
915.55	0.063
915.97	0.065
916.40	0.060
916.83	0.065
917.26	0.062
917.68	0.065
918.11	0.062
918.54	0.063
918.97	0.066
919.39	0.061
919.82	0.061
920.25	0.064
920.67	0.063
921.10	0.059
921.53	0.063
921.96	0.061
922.38	0.062
922.81	0.059
923.24	0.060
923.66	0.058
924.09	0.062
924.52	0.063
924.94	0.062
925.37	0.061
925.80	0.064
926.22	0.062
926.65	0.062
927.08	0.068
927.50	0.064
927.93	0.065
928.36	0.060
928.78	0.062
929.21	0.062
929.64	0.063
930.06	0.064
930.49	0.063
930.92	0.065
931.34	0.064
931.77	0.059
932.20	0.060
932.62	0.063
933.05	0.060
933.47	0.066
933.90	0.063
934.33	0.065
934.75	0.063
935.18	0.062
935.61	0.067
936.03	0.063
936.46	0.067
936.88	0.062
937.31	0.065
937.73	0.058
938.16	0.060
938.59	0.057
939.01	0.060
939.44	0.055
939.86	0.060
940.29	0.065
940.71	0.061
941.14	0.056
941.57	0.066
941.99	0.058
942.42	0.062
942.84	0.063
943.27	0.060
943.69	0.065
944.12	0.064
944.54	0.061
944.97	0.058
945.39	0.066
945.82	0.059
946.24	0.056
946.67	0.061
947.09	0.057
947.52	0.068
947.94	0.066
948.37	0.061
948.79	0.064
949.22	0.066
949.64	0.060
950.07	0.066
950.49	0.062
950.92	0.056
951.34	0.063
951.77	0.060
952.19	0.065
952.62	0.058
953.04	0.060
953.47	0.056
953.89	0.057
954.32	0.061
954.74	0.055
955.17	0.060
955.59	0.056
956.01	0.058
956.44	0.057
956.86	0.063
957.29	0.058
957.71	0.059
958.14	0.064
958.56	0.063
958.98	0.065
959.41	0.060
959.83	0.061
960.26	0.063
960.68	0.061
961.10	0.062
961.53	0.065
961.95	0.057
962.38	0.054
962.80	0.055
963.22	0.059
963.65	0.057
964.07	0.061
964.50	0.059
964.92	0.058
965.34	0.056
965.77	0.060
966.19	0.062
966.61	0.062
967.04	0.061
967.46	0.061
967.88	0.055
968.31	0.061
968.73	0.062
969.15	0.059
969.58	0.058
970.00	0.056
970.42	0.062
970.85	0.055
971.27	0.059
971.69	0.061
972.12	0.059
972.54	0.066
972.96	0.059
973.39	0.061
973.81	0.064
974.23	0.059
974.65	0.061
975.08	0.067
975.50	0.068
975.92	0.056
976.35	0.066
976.77	0.061
977.19	0.060
977.61	0.057
978.04	0.053
978.46	0.056
978.88	0.059
979.30	0.060
979.73	0.060
980.15	0.063
980.57	0.058
980.99	0.058
981.42	0.058
981.84	0.057
982.26	0.060
982.68	0.063
983.11	0.063
983.53	0.059
983.95	0.062
984.37	0.064
984.79	0.060
985.22	0.061
985.64	0.061
986.06	0.066
986.48	0.063
986.90	0.059
987.33	0.067
987.75	0.064
988.17	0.065
988.59	0.063
989.01	0.065
989.43	0.065
989.86	0.061
990.28	0.060
990.70	0.064
991.12	0.070
991.54	0.064
991.96	0.066
992.39	0.063
992.81	0.064
993.23	0.059
993.65	0.061
994.07	0.066
994.49	0.061
994.91	0.059
995.34	0.061
995.76	0.056
996.18	0.062
996.60	0.059
997.02	0.068
997.44	0.064
997.86	0.068
998.28	0.068
998.70	0.066
999.12	0.061
999.55	0.064
999.97	0.059
1000.39	0.058
1000.81	0.062
1001.23	0.067
1001.65	0.068
1002.07	0.066
1002.49	0.066
1002.91	0.060
1003.33	0.065
1003.75	0.065
1004.17	0.060
1004.59	0.062
1005.01	0.065
1005.43	0.060
1005.85	0.062
1006.28	0.065
1006.70	0.068
1007.12	0.062
1007.54	0.059
1007.96	0.061
1008.38	0.056
1008.80	0.069
1009.22	0.061
1009.64	0.062
1010.06	0.062
1010.48	0.064
1010.90	0.064
1011.32	0.055
1011.74	0.063
1012.16	0.062
1012.58	0.063
1013.00	0.063
1013.42	0.065
1013.84	0.064
1014.26	0.061
1014.67	0.065
1015.09	0.066
1015.51	0.065
1015.93	0.064
1016.35	0.063
1016.77	0.070
1017.19	0.064
1017.61	0.059
1018.03	0.068
1018.45	0.064
1018.87	0.063
1019.29	0.062
1019.71	0.068
1020.13	0.062
1020.55	0.058
1020.97	0.064
1021.38	0.056
1021.80	0.058
1022.22	0.064
1022.64	0.060
1023.06	0.067
1023.48	0.066
1023.90	0.062
1024.32	0.064
1024.74	0.069
1025.15	0.061
1025.57	0.061
1025.99	0.055
1026.41	0.063
1026.83	0.063
1027.25	0.055
1027.67	0.062
1028.08	0.072
1028.50	0.063
1028.92	0.081
1029.34	0.070
1029.76	0.066
1030.18	0.062
1030.60	0.070
1031.01	0.074
1031.43	0.058
1031.85	0.072
1032.27	0.066
1032.69	0.072
1033.10	0.069
1033.52	0.068
1033.94	0.056
1034.36	0.063
1034.78	0.058
1035.19	0.068
1035.61	0.057
1036.03	0.075
1036.45	0.068
1036.87	0.053
1037.28	0.059
1037.70	0.055
1038.12	0.069
1038.54	0.065
1038.95	0.066
1039.37	0.065
1039.79	0.068
1040.21	0.058
1040.62	0.074
1041.04	0.064
1041.46	0.061
1041.88	0.057
1042.29	0.065
1042.71	0.055
1043.13	0.061
1043.55	0.068
1043.96	0.056
1044.38	0.068
1044.80	0.051
1045.21	0.050
1045.63	0.067
1046.05	0.073
1046.47	0.062
1046.88	0.065
1047.30	0.048
1047.72	0.068
1048.13	0.062
1048.55	0.057
1048.97	0.060
1049.38	0.070
1049.80	0.065
1050.22	0.065
1050.63	0.053
1051.05	0.052
1051.47	0.077
1051.88	0.057
1052.30	0.065
1052.72	0.070
1053.13	0.075
1053.55	0.079
1053.97	0.049
1054.38	0.071
1054.80	0.068
1055.21	0.039
1055.63	0.075
1056.05	0.068
1056.46	0.062
1056.88	0.051
1057.29	0.029
1057.71	0.066
1058.13	0.067
1058.54	0.030
1058.96	0.092
1059.37	0.043
1059.79	0.008
1060.21	0.021
1060.62	0.064
1061.04	0.070
1061.45	0.036
1061.87	0.067
1062.28	0.078
1062.70	0.068
1063.12	0.051
1063.53	0.040
1063.95	0.085
1064.36	0.029
1064.78	0.063
1065.19	0.052
1065.61	0.084
1066.02	0.062
1066.44	0.053
1066.85	0.064
1067.27	0.114
1067.68	0.094
1068.10	0.050
1068.51	0.016
1068.93	-0.015
1069.35	0.042
1069.76	0.055
1070.17	0.036
1070.59	-0.019
1071.00	0.017
1071.42	0.066
1071.83	-0.013
1072.25	0.043
1072.66	0.054
1073.08	0.081
1073.49	0.078
1073.91	0.116
1074.32	0.073
1074.74	0.029
1075.15	-0.000
1075.57	0.051
1075.98	-0.000
1076.40	0.052
1076.81	0.064
1077.22	0.025
1077.64	0.055
1078.05	-0.012
1078.47	0.041
1078.88	0.129
1079.30	-0.005
1079.71	0.166
1080.12	0.155
1080.54	-0.006
1080.95	0.021
1081.37	0.087
1081.78	0.020
1082.19	0.150
1082.61	0.021
1083.02	0.103
1083.44	0.087
1083.85	-0.106
1084.26	0.137
1084.68	0.185
1085.09	0.174
1085.50	0.080
1085.92	0.159
1086.33	0.033
1086.74	-0.167
1087.16	-0.229
1087.57	0.184
1087.98	0.125
1088.40	-0.063
1088.81	0.163
1089.22	0.647
1089.64	-0.024
1090.05	-0.014
1090.46	0.220
1090.88	0.004
1091.29	-0.119
1091.70	-0.119
1092.12	0.068
1092.53	0.090
1092.94	-0.043
1093.36	-0.072
1093.77	0.142
1094.18	-0.203
1094.59	-0.027
1095.01	0.196
1095.42	-0.022
1095.83	-0.146
1096.25	0.209
1096.66	0.273
1097.07	0.042
1097.48	-0.088
1097.90	0.115
1098.31	0.142
1098.72	-0.100
1099.13	0.316
>>>>>End Processed Spectral Data<<<<<
