SpectraSuite Data File
++++++++++++++++++++++++++++++++++++
Date: Tue Mar 29 10:29:44 CEST 2016
User: IPCE
Dark Spectrum Present: Yes
Reference Spectrum Present: Yes
Number of Sampled Component Spectra: 1
Spectrometers: HR+C0708
Integration Time (usec): 1000 (HR+C0708)
Spectra Averaged: 10 (HR+C0708)
Boxcar Smoothing: 0 (HR+C0708)
Correct for Electrical Dark: No (HR+C0708)
Strobe/Lamp Enabled: No (HR+C0708)
Correct for Detector Non-linearity: No (HR+C0708)
Correct for Stray Light: No (HR+C0708)
Number of Pixels in Processed Spectrum: 2048
>>>>>Begin Processed Spectral Data<<<<<
188.76	0.137
189.23	0.022
189.70	-0.000
190.17	0.380
190.64	0.348
191.12	-0.145
191.59	0.443
192.06	-0.008
192.53	0.689
193.01	0.814
193.48	0.111
193.95	0.727
194.42	0.243
194.90	0.464
195.37	0.231
195.84	0.230
196.31	0.620
196.78	0.508
197.26	0.375
197.73	0.739
198.20	0.653
198.67	-0.286
199.14	0.199
199.62	0.143
200.09	0.357
200.56	0.160
201.03	0.267
201.50	0.134
201.97	0.239
202.45	0.118
202.92	0.274
203.39	0.217
203.86	0.259
204.33	0.293
204.80	0.334
205.28	0.303
205.75	0.212
206.22	0.260
206.69	0.277
207.16	0.232
207.63	0.240
208.11	0.349
208.58	0.246
209.05	0.317
209.52	0.308
209.99	0.357
210.46	0.331
210.93	0.291
211.41	0.248
211.88	0.308
212.35	0.363
212.82	0.257
213.29	0.306
213.76	0.404
214.23	0.477
214.70	0.534
215.18	0.508
215.65	0.413
216.12	0.349
216.59	0.463
217.06	0.475
217.53	0.553
218.00	0.521
218.47	0.759
218.94	0.521
219.41	0.488
219.89	0.564
220.36	0.685
220.83	0.614
221.30	0.682
221.77	0.709
222.24	0.732
222.71	0.886
223.18	0.749
223.65	0.852
224.12	0.928
224.59	0.944
225.06	0.878
225.54	1.005
226.01	1.025
226.48	1.066
226.95	1.115
227.42	1.180
227.89	1.302
228.36	1.223
228.83	1.411
229.30	1.363
229.77	1.326
230.24	1.392
230.71	1.515
231.18	1.699
231.65	1.468
232.12	1.496
232.59	1.542
233.06	1.604
233.53	1.567
234.00	1.755
234.47	1.740
234.94	1.812
235.41	1.783
235.88	1.830
236.35	1.876
236.82	1.927
237.29	1.915
237.76	1.957
238.23	2.088
238.70	1.916
239.17	1.894
239.64	1.998
240.11	2.022
240.58	1.979
241.05	2.103
241.52	2.085
241.99	2.099
242.46	2.066
242.93	2.230
243.40	2.204
243.87	2.018
244.34	2.203
244.81	2.122
245.28	2.196
245.75	2.072
246.22	2.175
246.69	2.308
247.16	2.253
247.63	2.167
248.10	2.218
248.57	2.205
249.04	2.276
249.51	2.217
249.98	2.186
250.45	2.140
250.92	2.080
251.39	2.085
251.85	2.056
252.32	2.053
252.79	1.976
253.26	1.973
253.73	1.900
254.20	1.803
254.67	1.718
255.14	1.671
255.61	1.627
256.08	1.543
256.55	1.476
257.02	1.422
257.49	1.362
257.95	1.302
258.42	1.265
258.89	1.213
259.36	1.166
259.83	1.132
260.30	1.089
260.77	1.062
261.24	1.026
261.71	0.990
262.17	0.975
262.64	0.947
263.11	0.914
263.58	0.890
264.05	0.865
264.52	0.837
264.99	0.812
265.46	0.790
265.92	0.774
266.39	0.747
266.86	0.732
267.33	0.711
267.80	0.691
268.27	0.671
268.74	0.658
269.20	0.636
269.67	0.623
270.14	0.602
270.61	0.590
271.08	0.578
271.55	0.559
272.01	0.545
272.48	0.531
272.95	0.519
273.42	0.508
273.89	0.496
274.36	0.483
274.82	0.472
275.29	0.460
275.76	0.451
276.23	0.442
276.70	0.433
277.16	0.422
277.63	0.412
278.10	0.406
278.57	0.396
279.04	0.386
279.50	0.379
279.97	0.371
280.44	0.362
280.91	0.358
281.38	0.348
281.84	0.343
282.31	0.335
282.78	0.328
283.25	0.324
283.72	0.318
284.18	0.311
284.65	0.306
285.12	0.303
285.59	0.299
286.05	0.290
286.52	0.287
286.99	0.283
287.46	0.277
287.92	0.270
288.39	0.265
288.86	0.263
289.33	0.254
289.79	0.251
290.26	0.247
290.73	0.240
291.20	0.237
291.66	0.234
292.13	0.235
292.60	0.227
293.07	0.224
293.53	0.219
294.00	0.217
294.47	0.212
294.93	0.209
295.40	0.204
295.87	0.202
296.34	0.196
296.80	0.194
297.27	0.190
297.74	0.188
298.20	0.184
298.67	0.180
299.14	0.177
299.60	0.177
300.07	0.172
300.54	0.168
301.01	0.165
301.47	0.164
301.94	0.162
302.41	0.159
302.87	0.158
303.34	0.154
303.81	0.151
304.27	0.147
304.74	0.146
305.21	0.144
305.67	0.140
306.14	0.141
306.61	0.136
307.07	0.134
307.54	0.132
308.01	0.129
308.47	0.127
308.94	0.128
309.40	0.127
309.87	0.123
310.34	0.123
310.80	0.121
311.27	0.117
311.74	0.117
312.20	0.117
312.67	0.115
313.13	0.113
313.60	0.112
314.07	0.114
314.53	0.108
315.00	0.109
315.47	0.107
315.93	0.106
316.40	0.105
316.86	0.106
317.33	0.104
317.80	0.102
318.26	0.102
318.73	0.102
319.19	0.102
319.66	0.098
320.13	0.098
320.59	0.099
321.06	0.095
321.52	0.096
321.99	0.097
322.45	0.097
322.92	0.092
323.39	0.093
323.85	0.097
324.32	0.092
324.78	0.093
325.25	0.091
325.71	0.092
326.18	0.091
326.64	0.090
327.11	0.089
327.58	0.089
328.04	0.089
328.51	0.088
328.97	0.089
329.44	0.088
329.90	0.086
330.37	0.087
330.83	0.086
331.30	0.083
331.76	0.086
332.23	0.085
332.69	0.086
333.16	0.082
333.62	0.083
334.09	0.082
334.56	0.081
335.02	0.083
335.49	0.083
335.95	0.082
336.42	0.080
336.88	0.083
337.35	0.079
337.81	0.081
338.28	0.082
338.74	0.080
339.20	0.078
339.67	0.079
340.13	0.078
340.60	0.079
341.06	0.077
341.53	0.077
341.99	0.076
342.46	0.078
342.92	0.076
343.39	0.077
343.85	0.077
344.32	0.073
344.78	0.075
345.25	0.076
345.71	0.077
346.17	0.078
346.64	0.074
347.10	0.073
347.57	0.074
348.03	0.073
348.50	0.071
348.96	0.072
349.43	0.073
349.89	0.071
350.35	0.073
350.82	0.073
351.28	0.074
351.75	0.077
352.21	0.070
352.67	0.076
353.14	0.072
353.60	0.072
354.07	0.075
354.53	0.071
355.00	0.070
355.46	0.072
355.92	0.070
356.39	0.071
356.85	0.075
357.31	0.070
357.78	0.070
358.24	0.073
358.71	0.068
359.17	0.071
359.63	0.068
360.10	0.071
360.56	0.069
361.03	0.071
361.49	0.070
361.95	0.071
362.42	0.069
362.88	0.069
363.34	0.067
363.81	0.069
364.27	0.071
364.73	0.066
365.20	0.072
365.66	0.069
366.12	0.068
366.59	0.068
367.05	0.067
367.51	0.070
367.98	0.066
368.44	0.068
368.90	0.068
369.37	0.069
369.83	0.066
370.29	0.066
370.76	0.065
371.22	0.065
371.68	0.067
372.15	0.065
372.61	0.066
373.07	0.066
373.54	0.064
374.00	0.066
374.46	0.066
374.92	0.066
375.39	0.067
375.85	0.066
376.31	0.066
376.78	0.064
377.24	0.065
377.70	0.064
378.16	0.065
378.63	0.065
379.09	0.067
379.55	0.065
380.01	0.066
380.48	0.065
380.94	0.065
381.40	0.065
381.87	0.068
382.33	0.068
382.79	0.063
383.25	0.065
383.72	0.065
384.18	0.068
384.64	0.066
385.10	0.060
385.56	0.065
386.03	0.065
386.49	0.065
386.95	0.063
387.41	0.064
387.88	0.064
388.34	0.063
388.80	0.065
389.26	0.063
389.72	0.064
390.19	0.062
390.65	0.062
391.11	0.066
391.57	0.062
392.04	0.062
392.50	0.063
392.96	0.065
393.42	0.062
393.88	0.063
394.34	0.061
394.81	0.064
395.27	0.063
395.73	0.063
396.19	0.065
396.65	0.064
397.12	0.060
397.58	0.065
398.04	0.061
398.50	0.063
398.96	0.062
399.42	0.063
399.89	0.061
400.35	0.063
400.81	0.061
401.27	0.062
401.73	0.063
402.19	0.062
402.65	0.062
403.12	0.062
403.58	0.063
404.04	0.063
404.50	0.062
404.96	0.061
405.42	0.060
405.88	0.064
406.34	0.065
406.81	0.061
407.27	0.060
407.73	0.061
408.19	0.062
408.65	0.058
409.11	0.061
409.57	0.061
410.03	0.060
410.49	0.059
410.96	0.060
411.42	0.063
411.88	0.061
412.34	0.061
412.80	0.061
413.26	0.058
413.72	0.062
414.18	0.060
414.64	0.061
415.10	0.062
415.56	0.062
416.02	0.059
416.48	0.061
416.95	0.060
417.41	0.060
417.87	0.061
418.33	0.060
418.79	0.060
419.25	0.059
419.71	0.062
420.17	0.059
420.63	0.060
421.09	0.058
421.55	0.060
422.01	0.059
422.47	0.062
422.93	0.057
423.39	0.059
423.85	0.060
424.31	0.059
424.77	0.057
425.23	0.058
425.69	0.060
426.15	0.058
426.61	0.059
427.07	0.062
427.53	0.057
427.99	0.059
428.45	0.058
428.91	0.060
429.37	0.060
429.83	0.062
430.29	0.059
430.75	0.059
431.21	0.058
431.67	0.056
432.13	0.059
432.59	0.060
433.05	0.058
433.51	0.058
433.97	0.059
434.43	0.057
434.89	0.061
435.35	0.059
435.81	0.059
436.27	0.059
436.73	0.060
437.19	0.057
437.65	0.057
438.11	0.058
438.57	0.055
439.03	0.057
439.48	0.055
439.94	0.057
440.40	0.056
440.86	0.055
441.32	0.053
441.78	0.061
442.24	0.056
442.70	0.054
443.16	0.052
443.62	0.055
444.08	0.056
444.54	0.056
444.99	0.056
445.45	0.059
445.91	0.056
446.37	0.055
446.83	0.056
447.29	0.053
447.75	0.058
448.21	0.057
448.67	0.057
449.12	0.057
449.58	0.058
450.04	0.055
450.50	0.057
450.96	0.057
451.42	0.054
451.88	0.058
452.34	0.056
452.79	0.056
453.25	0.054
453.71	0.055
454.17	0.054
454.63	0.057
455.09	0.056
455.55	0.058
456.00	0.054
456.46	0.055
456.92	0.055
457.38	0.055
457.84	0.054
458.30	0.053
458.75	0.054
459.21	0.055
459.67	0.055
460.13	0.054
460.59	0.055
461.04	0.055
461.50	0.054
461.96	0.053
462.42	0.053
462.88	0.056
463.33	0.053
463.79	0.054
464.25	0.053
464.71	0.052
465.17	0.053
465.62	0.053
466.08	0.052
466.54	0.054
467.00	0.053
467.46	0.053
467.91	0.053
468.37	0.054
468.83	0.053
469.29	0.053
469.74	0.055
470.20	0.054
470.66	0.054
471.12	0.053
471.57	0.055
472.03	0.054
472.49	0.052
472.95	0.053
473.40	0.054
473.86	0.053
474.32	0.054
474.78	0.053
475.23	0.054
475.69	0.055
476.15	0.053
476.60	0.054
477.06	0.054
477.52	0.055
477.98	0.053
478.43	0.053
478.89	0.052
479.35	0.056
479.80	0.051
480.26	0.052
480.72	0.051
481.18	0.055
481.63	0.052
482.09	0.051
482.55	0.053
483.00	0.051
483.46	0.055
483.92	0.051
484.37	0.054
484.83	0.053
485.29	0.052
485.74	0.053
486.20	0.051
486.66	0.053
487.11	0.051
487.57	0.051
488.03	0.050
488.48	0.050
488.94	0.049
489.40	0.054
489.85	0.053
490.31	0.052
490.77	0.052
491.22	0.052
491.68	0.051
492.13	0.052
492.59	0.052
493.05	0.053
493.50	0.052
493.96	0.051
494.42	0.050
494.87	0.050
495.33	0.053
495.78	0.052
496.24	0.050
496.70	0.051
497.15	0.052
497.61	0.052
498.06	0.051
498.52	0.052
498.98	0.049
499.43	0.051
499.89	0.049
500.34	0.051
500.80	0.050
501.25	0.049
501.71	0.051
502.17	0.052
502.62	0.050
503.08	0.051
503.53	0.049
503.99	0.052
504.44	0.051
504.90	0.050
505.36	0.052
505.81	0.048
506.27	0.048
506.72	0.050
507.18	0.051
507.63	0.049
508.09	0.048
508.54	0.051
509.00	0.049
509.45	0.049
509.91	0.050
510.36	0.051
510.82	0.052
511.27	0.049
511.73	0.050
512.19	0.050
512.64	0.049
513.10	0.052
513.55	0.051
514.01	0.049
514.46	0.049
514.92	0.050
515.37	0.050
515.83	0.051
516.28	0.052
516.73	0.048
517.19	0.051
517.64	0.049
518.10	0.048
518.55	0.051
519.01	0.050
519.46	0.050
519.92	0.049
520.37	0.050
520.83	0.049
521.28	0.050
521.74	0.049
522.19	0.048
522.65	0.050
523.10	0.048
523.55	0.049
524.01	0.050
524.46	0.052
524.92	0.047
525.37	0.050
525.83	0.051
526.28	0.049
526.73	0.049
527.19	0.049
527.64	0.050
528.10	0.050
528.55	0.050
529.01	0.050
529.46	0.050
529.91	0.046
530.37	0.050
530.82	0.050
531.28	0.049
531.73	0.049
532.18	0.050
532.64	0.049
533.09	0.050
533.54	0.049
534.00	0.049
534.45	0.049
534.91	0.049
535.36	0.048
535.81	0.048
536.27	0.048
536.72	0.048
537.17	0.050
537.63	0.048
538.08	0.051
538.54	0.048
538.99	0.052
539.44	0.049
539.90	0.047
540.35	0.050
540.80	0.049
541.26	0.049
541.71	0.049
542.16	0.049
542.62	0.051
543.07	0.049
543.52	0.048
543.98	0.049
544.43	0.050
544.88	0.050
545.34	0.048
545.79	0.049
546.24	0.048
546.69	0.048
547.15	0.049
547.60	0.048
548.05	0.048
548.51	0.048
548.96	0.046
549.41	0.046
549.86	0.050
550.32	0.049
550.77	0.048
551.22	0.048
551.68	0.048
552.13	0.049
552.58	0.045
553.03	0.049
553.49	0.048
553.94	0.048
554.39	0.047
554.84	0.046
555.30	0.047
555.75	0.047
556.20	0.047
556.65	0.046
557.11	0.045
557.56	0.047
558.01	0.046
558.46	0.048
558.92	0.047
559.37	0.048
559.82	0.046
560.27	0.048
560.72	0.047
561.18	0.046
561.63	0.047
562.08	0.048
562.53	0.047
562.99	0.046
563.44	0.046
563.89	0.046
564.34	0.047
564.79	0.047
565.25	0.047
565.70	0.046
566.15	0.047
566.60	0.049
567.05	0.046
567.50	0.047
567.96	0.048
568.41	0.046
568.86	0.047
569.31	0.047
569.76	0.045
570.21	0.046
570.67	0.047
571.12	0.046
571.57	0.045
572.02	0.047
572.47	0.046
572.92	0.044
573.37	0.045
573.83	0.044
574.28	0.044
574.73	0.047
575.18	0.045
575.63	0.045
576.08	0.046
576.53	0.045
576.98	0.043
577.44	0.045
577.89	0.045
578.34	0.044
578.79	0.044
579.24	0.043
579.69	0.044
580.14	0.044
580.59	0.045
581.04	0.044
581.49	0.043
581.95	0.044
582.40	0.043
582.85	0.044
583.30	0.043
583.75	0.045
584.20	0.044
584.65	0.043
585.10	0.043
585.55	0.044
586.00	0.042
586.45	0.042
586.90	0.043
587.35	0.041
587.80	0.043
588.25	0.044
588.71	0.043
589.16	0.044
589.61	0.042
590.06	0.043
590.51	0.044
590.96	0.043
591.41	0.044
591.86	0.045
592.31	0.044
592.76	0.045
593.21	0.043
593.66	0.044
594.11	0.041
594.56	0.044
595.01	0.044
595.46	0.044
595.91	0.042
596.36	0.042
596.81	0.043
597.26	0.045
597.71	0.043
598.16	0.043
598.61	0.044
599.06	0.044
599.51	0.043
599.96	0.043
600.41	0.043
600.86	0.044
601.31	0.043
601.76	0.042
602.21	0.044
602.65	0.043
603.10	0.044
603.55	0.044
604.00	0.043
604.45	0.043
604.90	0.044
605.35	0.042
605.80	0.042
606.25	0.042
606.70	0.043
607.15	0.044
607.60	0.043
608.05	0.042
608.50	0.042
608.95	0.042
609.39	0.042
609.84	0.042
610.29	0.043
610.74	0.042
611.19	0.043
611.64	0.043
612.09	0.040
612.54	0.041
612.99	0.042
613.44	0.042
613.88	0.042
614.33	0.040
614.78	0.042
615.23	0.044
615.68	0.041
616.13	0.043
616.58	0.041
617.03	0.042
617.47	0.043
617.92	0.043
618.37	0.042
618.82	0.043
619.27	0.043
619.72	0.041
620.17	0.042
620.61	0.043
621.06	0.040
621.51	0.042
621.96	0.042
622.41	0.042
622.86	0.042
623.30	0.041
623.75	0.042
624.20	0.041
624.65	0.041
625.10	0.041
625.54	0.041
625.99	0.041
626.44	0.040
626.89	0.042
627.34	0.041
627.78	0.040
628.23	0.040
628.68	0.042
629.13	0.042
629.58	0.042
630.02	0.040
630.47	0.042
630.92	0.042
631.37	0.041
631.81	0.041
632.26	0.040
632.71	0.043
633.16	0.042
633.61	0.043
634.05	0.042
634.50	0.043
634.95	0.042
635.40	0.041
635.84	0.043
636.29	0.041
636.74	0.040
637.18	0.042
637.63	0.040
638.08	0.041
638.53	0.041
638.97	0.042
639.42	0.042
639.87	0.042
640.32	0.039
640.76	0.041
641.21	0.041
641.66	0.040
642.10	0.040
642.55	0.040
643.00	0.041
643.44	0.042
643.89	0.042
644.34	0.042
644.79	0.041
645.23	0.041
645.68	0.041
646.13	0.041
646.57	0.040
647.02	0.041
647.47	0.040
647.91	0.042
648.36	0.041
648.81	0.040
649.25	0.039
649.70	0.040
650.15	0.040
650.59	0.041
651.04	0.041
651.48	0.042
651.93	0.041
652.38	0.042
652.82	0.042
653.27	0.041
653.72	0.042
654.16	0.040
654.61	0.042
655.06	0.040
655.50	0.040
655.95	0.039
656.39	0.038
656.84	0.038
657.29	0.043
657.73	0.042
658.18	0.042
658.62	0.041
659.07	0.040
659.52	0.043
659.96	0.041
660.41	0.041
660.85	0.043
661.30	0.040
661.74	0.040
662.19	0.041
662.64	0.041
663.08	0.043
663.53	0.043
663.97	0.042
664.42	0.041
664.86	0.042
665.31	0.042
665.75	0.040
666.20	0.040
666.65	0.042
667.09	0.041
667.54	0.042
667.98	0.041
668.43	0.042
668.87	0.041
669.32	0.043
669.76	0.042
670.21	0.041
670.65	0.040
671.10	0.043
671.54	0.041
671.99	0.040
672.43	0.040
672.88	0.043
673.32	0.043
673.77	0.042
674.21	0.042
674.66	0.041
675.10	0.042
675.55	0.043
675.99	0.043
676.44	0.043
676.88	0.042
677.33	0.040
677.77	0.041
678.22	0.042
678.66	0.041
679.11	0.041
679.55	0.040
679.99	0.040
680.44	0.040
680.88	0.041
681.33	0.042
681.77	0.042
682.22	0.044
682.66	0.042
683.11	0.041
683.55	0.042
683.99	0.043
684.44	0.042
684.88	0.042
685.33	0.040
685.77	0.042
686.21	0.043
686.66	0.040
687.10	0.041
687.55	0.041
687.99	0.041
688.44	0.041
688.88	0.042
689.32	0.041
689.77	0.042
690.21	0.042
690.65	0.041
691.10	0.042
691.54	0.041
691.99	0.042
692.43	0.043
692.87	0.042
693.32	0.042
693.76	0.042
694.20	0.040
694.65	0.044
695.09	0.041
695.53	0.041
695.98	0.042
696.42	0.041
696.86	0.043
697.31	0.043
697.75	0.043
698.19	0.041
698.64	0.041
699.08	0.041
699.52	0.045
699.97	0.042
700.41	0.042
700.85	0.042
701.30	0.041
701.74	0.041
702.18	0.043
702.63	0.041
703.07	0.040
703.51	0.042
703.96	0.043
704.40	0.042
704.84	0.041
705.28	0.042
705.73	0.042
706.17	0.042
706.61	0.040
707.06	0.041
707.50	0.042
707.94	0.043
708.38	0.040
708.83	0.041
709.27	0.042
709.71	0.041
710.15	0.042
710.60	0.041
711.04	0.042
711.48	0.042
711.92	0.043
712.37	0.041
712.81	0.039
713.25	0.040
713.69	0.041
714.13	0.041
714.58	0.042
715.02	0.042
715.46	0.044
715.90	0.044
716.35	0.043
716.79	0.044
717.23	0.044
717.67	0.043
718.11	0.041
718.56	0.046
719.00	0.045
719.44	0.044
719.88	0.041
720.32	0.043
720.76	0.043
721.21	0.043
721.65	0.043
722.09	0.044
722.53	0.043
722.97	0.041
723.41	0.042
723.86	0.043
724.30	0.042
724.74	0.043
725.18	0.043
725.62	0.043
726.06	0.042
726.50	0.044
726.95	0.042
727.39	0.046
727.83	0.045
728.27	0.043
728.71	0.044
729.15	0.045
729.59	0.044
730.03	0.043
730.48	0.040
730.92	0.041
731.36	0.042
731.80	0.043
732.24	0.043
732.68	0.040
733.12	0.041
733.56	0.042
734.00	0.042
734.44	0.044
734.89	0.041
735.33	0.040
735.77	0.041
736.21	0.042
736.65	0.046
737.09	0.043
737.53	0.042
737.97	0.041
738.41	0.042
738.85	0.041
739.29	0.041
739.73	0.041
740.17	0.042
740.61	0.041
741.05	0.044
741.49	0.043
741.93	0.043
742.37	0.043
742.81	0.042
743.26	0.045
743.70	0.042
744.14	0.043
744.58	0.041
745.02	0.044
745.46	0.043
745.90	0.044
746.34	0.042
746.78	0.044
747.22	0.040
747.66	0.043
748.10	0.042
748.54	0.042
748.98	0.040
749.42	0.044
749.86	0.043
750.29	0.041
750.73	0.045
751.17	0.043
751.61	0.042
752.05	0.043
752.49	0.044
752.93	0.043
753.37	0.044
753.81	0.044
754.25	0.042
754.69	0.044
755.13	0.040
755.57	0.040
756.01	0.041
756.45	0.045
756.89	0.041
757.33	0.044
757.77	0.044
758.21	0.044
758.64	0.041
759.08	0.043
759.52	0.044
759.96	0.042
760.40	0.043
760.84	0.043
761.28	0.041
761.72	0.040
762.16	0.043
762.60	0.045
763.03	0.043
763.47	0.041
763.91	0.042
764.35	0.042
764.79	0.041
765.23	0.039
765.67	0.040
766.11	0.039
766.54	0.041
766.98	0.043
767.42	0.042
767.86	0.043
768.30	0.042
768.74	0.041
769.17	0.043
769.61	0.042
770.05	0.040
770.49	0.042
770.93	0.043
771.37	0.041
771.80	0.040
772.24	0.039
772.68	0.045
773.12	0.044
773.56	0.038
774.00	0.038
774.43	0.039
774.87	0.040
775.31	0.042
775.75	0.040
776.19	0.042
776.62	0.039
777.06	0.041
777.50	0.042
777.94	0.041
778.37	0.042
778.81	0.044
779.25	0.041
779.69	0.044
780.13	0.043
780.56	0.041
781.00	0.042
781.44	0.042
781.88	0.045
782.31	0.044
782.75	0.044
783.19	0.043
783.63	0.045
784.06	0.042
784.50	0.040
784.94	0.040
785.37	0.045
785.81	0.041
786.25	0.040
786.69	0.042
787.12	0.041
787.56	0.039
788.00	0.041
788.43	0.040
788.87	0.041
789.31	0.039
789.75	0.042
790.18	0.042
790.62	0.042
791.06	0.039
791.49	0.043
791.93	0.041
792.37	0.044
792.80	0.042
793.24	0.042
793.68	0.040
794.11	0.043
794.55	0.042
794.99	0.045
795.42	0.044
795.86	0.043
796.30	0.043
796.73	0.039
797.17	0.043
797.61	0.045
798.04	0.040
798.48	0.043
798.91	0.045
799.35	0.044
799.79	0.041
800.22	0.047
800.66	0.045
801.10	0.042
801.53	0.041
801.97	0.045
802.40	0.042
802.84	0.043
803.28	0.044
803.71	0.044
804.15	0.042
804.58	0.046
805.02	0.046
805.46	0.045
805.89	0.044
806.33	0.042
806.76	0.044
807.20	0.043
807.63	0.041
808.07	0.042
808.51	0.041
808.94	0.041
809.38	0.041
809.81	0.045
810.25	0.040
810.68	0.045
811.12	0.042
811.55	0.039
811.99	0.040
812.42	0.046
812.86	0.042
813.29	0.043
813.73	0.044
814.17	0.042
814.60	0.042
815.04	0.039
815.47	0.041
815.91	0.039
816.34	0.042
816.78	0.043
817.21	0.043
817.65	0.040
818.08	0.042
818.52	0.042
818.95	0.043
819.39	0.043
819.82	0.045
820.25	0.042
820.69	0.043
821.12	0.041
821.56	0.046
821.99	0.040
822.43	0.041
822.86	0.041
823.30	0.043
823.73	0.038
824.17	0.042
824.60	0.042
825.04	0.041
825.47	0.042
825.90	0.047
826.34	0.043
826.77	0.039
827.21	0.041
827.64	0.045
828.08	0.041
828.51	0.039
828.94	0.044
829.38	0.043
829.81	0.040
830.25	0.042
830.68	0.045
831.11	0.042
831.55	0.045
831.98	0.041
832.42	0.043
832.85	0.046
833.28	0.042
833.72	0.042
834.15	0.044
834.58	0.041
835.02	0.042
835.45	0.042
835.88	0.044
836.32	0.043
836.75	0.040
837.19	0.045
837.62	0.040
838.05	0.041
838.49	0.039
838.92	0.041
839.35	0.043
839.79	0.042
840.22	0.041
840.65	0.043
841.09	0.042
841.52	0.046
841.95	0.043
842.39	0.041
842.82	0.045
843.25	0.040
843.68	0.040
844.12	0.041
844.55	0.042
844.98	0.043
845.42	0.039
845.85	0.041
846.28	0.042
846.71	0.045
847.15	0.039
847.58	0.042
848.01	0.045
848.45	0.045
848.88	0.042
849.31	0.041
849.74	0.042
850.18	0.042
850.61	0.040
851.04	0.046
851.47	0.046
851.91	0.043
852.34	0.040
852.77	0.048
853.20	0.044
853.64	0.043
854.07	0.043
854.50	0.050
854.93	0.048
855.36	0.045
855.80	0.043
856.23	0.044
856.66	0.047
857.09	0.042
857.52	0.046
857.96	0.042
858.39	0.042
858.82	0.049
859.25	0.044
859.68	0.044
860.12	0.046
860.55	0.043
860.98	0.040
861.41	0.039
861.84	0.042
862.27	0.040
862.71	0.045
863.14	0.045
863.57	0.043
864.00	0.044
864.43	0.048
864.86	0.042
865.30	0.043
865.73	0.045
866.16	0.042
866.59	0.042
867.02	0.038
867.45	0.046
867.88	0.039
868.31	0.040
868.75	0.048
869.18	0.042
869.61	0.044
870.04	0.038
870.47	0.040
870.90	0.039
871.33	0.041
871.76	0.041
872.19	0.042
872.62	0.050
873.06	0.041
873.49	0.048
873.92	0.044
874.35	0.044
874.78	0.036
875.21	0.044
875.64	0.047
876.07	0.044
876.50	0.048
876.93	0.048
877.36	0.047
877.79	0.043
878.22	0.043
878.65	0.042
879.08	0.044
879.51	0.048
879.94	0.045
880.37	0.048
880.80	0.045
881.23	0.043
881.67	0.048
882.10	0.045
882.53	0.052
882.96	0.050
883.39	0.045
883.82	0.048
884.25	0.044
884.68	0.044
885.11	0.047
885.54	0.045
885.97	0.047
886.39	0.052
886.82	0.042
887.25	0.045
887.68	0.053
888.11	0.048
888.54	0.046
888.97	0.059
889.40	0.054
889.83	0.050
890.26	0.054
890.69	0.053
891.12	0.048
891.55	0.052
891.98	0.046
892.41	0.046
892.84	0.052
893.27	0.052
893.70	0.050
894.13	0.049
894.56	0.050
894.98	0.053
895.41	0.051
895.84	0.044
896.27	0.048
896.70	0.049
897.13	0.049
897.56	0.051
897.99	0.048
898.42	0.051
898.85	0.049
899.27	0.045
899.70	0.050
900.13	0.049
900.56	0.051
900.99	0.049
901.42	0.053
901.85	0.049
902.28	0.051
902.70	0.048
903.13	0.045
903.56	0.050
903.99	0.055
904.42	0.051
904.85	0.045
905.27	0.046
905.70	0.048
906.13	0.047
906.56	0.046
906.99	0.048
907.42	0.050
907.84	0.049
908.27	0.043
908.70	0.051
909.13	0.046
909.56	0.043
909.98	0.049
910.41	0.047
910.84	0.042
911.27	0.048
911.70	0.047
912.12	0.047
912.55	0.051
912.98	0.048
913.41	0.045
913.84	0.043
914.26	0.046
914.69	0.048
915.12	0.044
915.55	0.045
915.97	0.045
916.40	0.044
916.83	0.045
917.26	0.044
917.68	0.043
918.11	0.041
918.54	0.044
918.97	0.046
919.39	0.042
919.82	0.043
920.25	0.041
920.67	0.042
921.10	0.046
921.53	0.044
921.96	0.040
922.38	0.040
922.81	0.042
923.24	0.042
923.66	0.043
924.09	0.044
924.52	0.045
924.94	0.039
925.37	0.043
925.80	0.041
926.22	0.040
926.65	0.040
927.08	0.040
927.50	0.042
927.93	0.038
928.36	0.043
928.78	0.044
929.21	0.041
929.64	0.043
930.06	0.043
930.49	0.047
930.92	0.045
931.34	0.040
931.77	0.041
932.20	0.044
932.62	0.046
933.05	0.044
933.47	0.043
933.90	0.043
934.33	0.042
934.75	0.045
935.18	0.044
935.61	0.047
936.03	0.045
936.46	0.049
936.88	0.044
937.31	0.048
937.73	0.042
938.16	0.043
938.59	0.049
939.01	0.043
939.44	0.048
939.86	0.047
940.29	0.045
940.71	0.037
941.14	0.042
941.57	0.042
941.99	0.046
942.42	0.045
942.84	0.045
943.27	0.043
943.69	0.043
944.12	0.048
944.54	0.038
944.97	0.044
945.39	0.047
945.82	0.048
946.24	0.043
946.67	0.042
947.09	0.040
947.52	0.043
947.94	0.045
948.37	0.043
948.79	0.047
949.22	0.040
949.64	0.042
950.07	0.043
950.49	0.035
950.92	0.043
951.34	0.043
951.77	0.046
952.19	0.038
952.62	0.044
953.04	0.046
953.47	0.047
953.89	0.045
954.32	0.047
954.74	0.047
955.17	0.043
955.59	0.041
956.01	0.043
956.44	0.047
956.86	0.041
957.29	0.046
957.71	0.045
958.14	0.044
958.56	0.041
958.98	0.045
959.41	0.044
959.83	0.040
960.26	0.047
960.68	0.044
961.10	0.037
961.53	0.042
961.95	0.043
962.38	0.048
962.80	0.042
963.22	0.044
963.65	0.043
964.07	0.036
964.50	0.046
964.92	0.043
965.34	0.039
965.77	0.043
966.19	0.039
966.61	0.038
967.04	0.039
967.46	0.043
967.88	0.051
968.31	0.045
968.73	0.042
969.15	0.046
969.58	0.043
970.00	0.041
970.42	0.037
970.85	0.038
971.27	0.038
971.69	0.045
972.12	0.043
972.54	0.044
972.96	0.042
973.39	0.038
973.81	0.038
974.23	0.043
974.65	0.039
975.08	0.044
975.50	0.045
975.92	0.042
976.35	0.044
976.77	0.046
977.19	0.041
977.61	0.040
978.04	0.041
978.46	0.042
978.88	0.035
979.30	0.046
979.73	0.042
980.15	0.043
980.57	0.043
980.99	0.045
981.42	0.043
981.84	0.044
982.26	0.043
982.68	0.047
983.11	0.043
983.53	0.047
983.95	0.042
984.37	0.051
984.79	0.046
985.22	0.043
985.64	0.044
986.06	0.042
986.48	0.049
986.90	0.046
987.33	0.043
987.75	0.039
988.17	0.043
988.59	0.045
989.01	0.043
989.43	0.047
989.86	0.047
990.28	0.047
990.70	0.044
991.12	0.040
991.54	0.045
991.96	0.045
992.39	0.042
992.81	0.046
993.23	0.042
993.65	0.045
994.07	0.038
994.49	0.039
994.91	0.045
995.34	0.045
995.76	0.045
996.18	0.046
996.60	0.044
997.02	0.045
997.44	0.048
997.86	0.043
998.28	0.045
998.70	0.050
999.12	0.046
999.55	0.051
999.97	0.048
1000.39	0.043
1000.81	0.043
1001.23	0.050
1001.65	0.043
1002.07	0.048
1002.49	0.049
1002.91	0.052
1003.33	0.040
1003.75	0.047
1004.17	0.047
1004.59	0.050
1005.01	0.050
1005.43	0.049
1005.85	0.051
1006.28	0.051
1006.70	0.053
1007.12	0.047
1007.54	0.043
1007.96	0.046
1008.38	0.053
1008.80	0.045
1009.22	0.050
1009.64	0.045
1010.06	0.054
1010.48	0.051
1010.90	0.045
1011.32	0.050
1011.74	0.050
1012.16	0.049
1012.58	0.051
1013.00	0.055
1013.42	0.045
1013.84	0.051
1014.26	0.044
1014.67	0.046
1015.09	0.040
1015.51	0.042
1015.93	0.042
1016.35	0.045
1016.77	0.051
1017.19	0.036
1017.61	0.049
1018.03	0.052
1018.45	0.038
1018.87	0.044
1019.29	0.038
1019.71	0.047
1020.13	0.045
1020.55	0.045
1020.97	0.044
1021.38	0.048
1021.80	0.043
1022.22	0.057
1022.64	0.045
1023.06	0.051
1023.48	0.041
1023.90	0.043
1024.32	0.046
1024.74	0.052
1025.15	0.050
1025.57	0.052
1025.99	0.053
1026.41	0.045
1026.83	0.062
1027.25	0.045
1027.67	0.061
1028.08	0.056
1028.50	0.041
1028.92	0.052
1029.34	0.058
1029.76	0.039
1030.18	0.066
1030.60	0.052
1031.01	0.046
1031.43	0.045
1031.85	0.049
1032.27	0.056
1032.69	0.039
1033.10	0.052
1033.52	0.054
1033.94	0.056
1034.36	0.057
1034.78	0.051
1035.19	0.051
1035.61	0.062
1036.03	0.061
1036.45	0.043
1036.87	0.059
1037.28	0.047
1037.70	0.050
1038.12	0.050
1038.54	0.064
1038.95	0.048
1039.37	0.056
1039.79	0.052
1040.21	0.051
1040.62	0.055
1041.04	0.064
1041.46	0.075
1041.88	0.052
1042.29	0.066
1042.71	0.047
1043.13	0.073
1043.55	0.050
1043.96	0.055
1044.38	0.049
1044.80	0.054
1045.21	0.044
1045.63	0.056
1046.05	0.070
1046.47	0.059
1046.88	0.056
1047.30	0.048
1047.72	0.067
1048.13	0.051
1048.55	0.054
1048.97	0.061
1049.38	0.046
1049.80	0.042
1050.22	0.059
1050.63	0.049
1051.05	0.055
1051.47	0.043
1051.88	0.048
1052.30	0.077
1052.72	0.046
1053.13	0.055
1053.55	0.037
1053.97	0.073
1054.38	0.069
1054.80	0.110
1055.21	0.064
1055.63	0.076
1056.05	0.014
1056.46	0.079
1056.88	0.062
1057.29	0.065
1057.71	0.043
1058.13	0.102
1058.54	0.078
1058.96	0.042
1059.37	0.053
1059.79	0.083
1060.21	0.064
1060.62	0.084
1061.04	0.078
1061.45	0.104
1061.87	0.121
1062.28	0.073
1062.70	0.102
1063.12	0.113
1063.53	0.109
1063.95	0.086
1064.36	0.120
1064.78	0.121
1065.19	0.034
1065.61	0.089
1066.02	0.027
1066.44	0.057
1066.85	0.037
1067.27	0.062
1067.68	0.117
1068.10	0.151
1068.51	0.058
1068.93	0.206
1069.35	0.172
1069.76	0.123
1070.17	0.159
1070.59	0.072
1071.00	0.047
1071.42	0.085
1071.83	0.130
1072.25	0.152
1072.66	0.210
1073.08	0.167
1073.49	0.178
1073.91	0.157
1074.32	0.036
1074.74	0.240
1075.15	0.091
1075.57	0.084
1075.98	0.147
1076.40	0.131
1076.81	0.150
1077.22	0.234
1077.64	0.070
1078.05	0.254
1078.47	0.196
1078.88	0.177
1079.30	0.137
1079.71	0.365
1080.12	0.232
1080.54	0.086
1080.95	0.173
1081.37	0.922
1081.78	0.261
1082.19	0.198
1082.61	0.740
1083.02	0.406
1083.44	0.085
1083.85	0.083
1084.26	0.305
1084.68	0.333
1085.09	0.560
1085.50	0.090
1085.92	0.311
1086.33	1.007
1086.74	0.112
1087.16	0.388
1087.57	0.714
1087.98	0.261
1088.40	0.469
1088.81	0.255
1089.22	0.575
1089.64	0.166
1090.05	0.267
1090.46	0.353
1090.88	0.681
1091.29	0.088
1091.70	0.318
1092.12	1.230
1092.53	0.224
1092.94	0.242
1093.36	0.275
1093.77	0.544
1094.18	0.309
1094.59	0.077
1095.01	0.435
1095.42	0.446
1095.83	0.061
1096.25	-0.000
1096.66	-0.000
1097.07	0.122
1097.48	0.435
1097.90	0.232
1098.31	0.824
1098.72	0.138
1099.13	0.267
>>>>>End Processed Spectral Data<<<<<
